soundEstimulus,trials_2.thisRepN,trials_2.thisTrialN,trials_2.thisN,trials_2.thisIndex,trials.thisRepN,trials.thisTrialN,trials.thisN,trials.thisIndex,image_2.started,image_2.stopped,key_resp.keys,key_resp.rt,key_resp.started,key_resp.stopped,instruccion.started,instruccion.stopped,instruccion_2.started,instruccion_2.stopped,key_resp_2.keys,key_resp_2.rt,key_resp_2.started,key_resp_2.stopped,soundEst.started,soundEst.stopped,testText.started,testText.stopped,instr_2.started,instr_2.stopped,key_resp_3.keys,key_resp_3.rt,key_resp_3.started,key_resp_3.stopped,instruccion_3.started,instruccion_3.stopped,instr.started,instr.stopped,text.started,text.stopped,typedWord,text_3.started,text_3.stopped,participant,session,date,expName,psychopyVersion,frameRate,
,,,,,,,,,9.546147299930453,None,return,9.623674400150776,16.545299699995667,None,,,,,,,,,,,,,,,,,,,,,,,,,,,,004,001,2022-06-23_14h04.23.912,audio-text-input,2022.1.1,59.983720364162636,
,,,,,,,,,,,,,,,16.545299699995667,None,26.189177100080997,None,return,8.681383999995887,26.189177100080997,None,,,,,,,,,,,,,,,,,,,,004,001,2022-06-23_14h04.23.912,audio-text-input,2022.1.1,59.983720364162636,
estimulos/1.wav,0,0,0,0,,,,,,,,,,,,,,,,,,,0.008202820084989071,None,40.03776229987852,None,40.03776229987852,None,,,,,,,,,,,,,,004,001,2022-06-23_14h04.23.912,audio-text-input,2022.1.1,59.983720364162636,
estimulos/2.wav,0,1,1,1,,,,,,,,,,,,,,,,,,,0.01370422006584704,None,55.454557300079614,None,55.454557300079614,None,,,,,,,,,,,,,,004,001,2022-06-23_14h04.23.912,audio-text-input,2022.1.1,59.983720364162636,
estimulos/3.wav,0,2,2,2,,,,,,,,,,,,,,,,,,,0.013683120021596551,None,64.46446350007318,None,64.46446350007318,None,,,,,,,,,,,,,,004,001,2022-06-23_14h04.23.912,audio-text-input,2022.1.1,59.983720364162636,
estimulos/5.wav,0,3,3,4,,,,,,,,,,,,,,,,,,,0.013847019989043474,None,75.35963259986602,None,75.35963259986602,None,,,,,,,,,,,,,,004,001,2022-06-23_14h04.23.912,audio-text-input,2022.1.1,59.983720364162636,
estimulos/6.wav,0,4,4,5,,,,,,,,,,,,,,,,,,,0.013771020108833909,None,82.35063020000234,None,82.35063020000234,None,,,,,,,,,,,,,,004,001,2022-06-23_14h04.23.912,audio-text-input,2022.1.1,59.983720364162636,
estimulos/4.wav,0,5,5,3,,,,,,,,,,,,,,,,,,,0.013821520144119859,None,89.74202540004626,None,89.74202540004626,None,,,,,,,,,,,,,,004,001,2022-06-23_14h04.23.912,audio-text-input,2022.1.1,59.983720364162636,
,,,,,,,,,,,,,,,,,,,,,,,,,,,,,return,6.806852400070056,98.80189589993097,None,,,,,,,,,,004,001,2022-06-23_14h04.23.912,audio-text-input,2022.1.1,59.983720364162636,
estimulos/3.wav,,,,,0,0,0,2,,,,,,,,,,,,,,,0.009225819958373904,None,,,,,,,,,98.80189589993097,None,110.76505529996939,None,110.76505529996939,None,4,,,004,001,2022-06-23_14h04.23.912,audio-text-input,2022.1.1,59.983720364162636,
estimulos/1.wav,,,,,0,1,1,0,,,,,,,,,,,,,,,0.013345620362088084,None,,,,,,,,,,,117.32295059994794,None,117.32295059994794,None,2,,,004,001,2022-06-23_14h04.23.912,audio-text-input,2022.1.1,59.983720364162636,
estimulos/5.wav,,,,,0,2,2,4,,,,,,,,,,,,,,,0.013802319997921586,None,,,,,,,,,,,123.06180640007369,None,123.06180640007369,None,6,,,004,001,2022-06-23_14h04.23.912,audio-text-input,2022.1.1,59.983720364162636,
estimulos/2.wav,,,,,0,3,3,1,,,,,,,,,,,,,,,0.01381471985951066,None,,,,,,,,,,,128.85146809997968,None,128.85146809997968,None,3,,,004,001,2022-06-23_14h04.23.912,audio-text-input,2022.1.1,59.983720364162636,
estimulos/4.wav,,,,,0,4,4,3,,,,,,,,,,,,,,,0.013836419908329844,None,,,,,,,,,,,135.074984600069,None,135.074984600069,None,9,,,004,001,2022-06-23_14h04.23.912,audio-text-input,2022.1.1,59.983720364162636,
estimulos/6.wav,,,,,0,5,5,5,,,,,,,,,,,,,,,0.013794220052659512,None,,,,,,,,,,,142.26611860003322,None,142.26611860003322,None,10,,,004,001,2022-06-23_14h04.23.912,audio-text-input,2022.1.1,59.983720364162636,
estimulos/2.wav,,,,,1,0,6,1,,,,,,,,,,,,,,,0.013784819981083274,None,,,,,,,,,,,148.30611820006743,None,148.30611820006743,None,4,,,004,001,2022-06-23_14h04.23.912,audio-text-input,2022.1.1,59.983720364162636,
estimulos/4.wav,,,,,1,1,7,3,,,,,,,,,,,,,,,0.013795620063319802,None,,,,,,,,,,,153.96224929997697,None,153.96224929997697,None,6,,,004,001,2022-06-23_14h04.23.912,audio-text-input,2022.1.1,59.983720364162636,
estimulos/5.wav,,,,,1,2,8,4,,,,,,,,,,,,,,,0.013880420243367553,None,,,,,,,,,,,159.6185075000394,None,159.6185075000394,None,7,,,004,001,2022-06-23_14h04.23.912,audio-text-input,2022.1.1,59.983720364162636,
estimulos/3.wav,,,,,1,3,9,2,,,,,,,,,,,,,,,0.013780720066279173,None,,,,,,,,,,,165.7751646998804,None,165.7751646998804,None,5,,,004,001,2022-06-23_14h04.23.912,audio-text-input,2022.1.1,59.983720364162636,
estimulos/6.wav,,,,,1,4,10,5,,,,,,,,,,,,,,,0.013739719986915588,None,,,,,,,,,,,173.63373979995959,None,173.63373979995959,None,10,,,004,001,2022-06-23_14h04.23.912,audio-text-input,2022.1.1,59.983720364162636,
estimulos/1.wav,,,,,1,5,11,0,,,,,,,,,,,,,,,0.013799420092254877,None,,,,,,,,,,,179.60766289988533,None,179.60766289988533,None,1,,,004,001,2022-06-23_14h04.23.912,audio-text-input,2022.1.1,59.983720364162636,
estimulos/2.wav,,,,,2,0,12,1,,,,,,,,,,,,,,,0.013760919915512204,None,,,,,,,,,,,185.39663739991374,None,185.39663739991374,None,4,,,004,001,2022-06-23_14h04.23.912,audio-text-input,2022.1.1,59.983720364162636,
estimulos/5.wav,,,,,2,1,13,4,,,,,,,,,,,,,,,0.01385222002863884,None,,,,,,,,,,,191.08615630003624,None,191.08615630003624,None,8,,,004,001,2022-06-23_14h04.23.912,audio-text-input,2022.1.1,59.983720364162636,
estimulos/1.wav,,,,,2,2,14,0,,,,,,,,,,,,,,,0.013793319929391146,None,,,,,,,,,,,196.6423003000673,None,196.6423003000673,None,1,,,004,001,2022-06-23_14h04.23.912,audio-text-input,2022.1.1,59.983720364162636,
estimulos/3.wav,,,,,2,3,15,2,,,,,,,,,,,,,,,0.01379772019572556,None,,,,,,,,,,,202.2817215998657,None,202.2817215998657,None,6,,,004,001,2022-06-23_14h04.23.912,audio-text-input,2022.1.1,59.983720364162636,
estimulos/4.wav,,,,,2,4,16,3,,,,,,,,,,,,,,,0.013871520292013884,None,,,,,,,,,,,207.8878587000072,None,207.8878587000072,None,8,,,004,001,2022-06-23_14h04.23.912,audio-text-input,2022.1.1,59.983720364162636,
estimulos/6.wav,,,,,2,5,17,5,,,,,,,,,,,,,,,0.013869220158085227,None,,,,,,,,,,,213.92784029990435,None,213.92784029990435,None,10,,,004,001,2022-06-23_14h04.23.912,audio-text-input,2022.1.1,59.983720364162636,
estimulos/4.wav,,,,,3,0,18,3,,,,,,,,,,,,,,,0.013767919968813658,None,,,,,,,,,,,220.05123650003225,None,220.05123650003225,None,6,,,004,001,2022-06-23_14h04.23.912,audio-text-input,2022.1.1,59.983720364162636,
estimulos/2.wav,,,,,3,1,19,1,,,,,,,,,,,,,,,0.013532820390537381,None,,,,,,,,,,,226.84192060003988,None,226.84192060003988,None,4,,,004,001,2022-06-23_14h04.23.912,audio-text-input,2022.1.1,59.983720364162636,
estimulos/3.wav,,,,,3,2,20,2,,,,,,,,,,,,,,,0.013810120290145278,None,,,,,,,,,,,232.46469689998776,None,232.46469689998776,None,4,,,004,001,2022-06-23_14h04.23.912,audio-text-input,2022.1.1,59.983720364162636,
estimulos/5.wav,,,,,3,3,21,4,,,,,,,,,,,,,,,0.0135343202855438,None,,,,,,,,,,,238.4879840000067,None,238.4879840000067,None,6,,,004,001,2022-06-23_14h04.23.912,audio-text-input,2022.1.1,59.983720364162636,
estimulos/6.wav,,,,,3,4,22,5,,,,,,,,,,,,,,,0.01384662021882832,None,,,,,,,,,,,244.69481709995307,None,244.69481709995307,None,10,,,004,001,2022-06-23_14h04.23.912,audio-text-input,2022.1.1,59.983720364162636,
estimulos/1.wav,,,,,3,5,23,0,,,,,,,,,,,,,,,0.01379032013937831,None,,,,,,,,,,,250.81819959986024,None,250.81819959986024,None,1,,,004,001,2022-06-23_14h04.23.912,audio-text-input,2022.1.1,59.983720364162636,
estimulos/4.wav,,,,,4,0,24,3,,,,,,,,,,,,,,,0.013815820217132568,None,,,,,,,,,,,256.40766349993646,None,256.40766349993646,None,6,,,004,001,2022-06-23_14h04.23.912,audio-text-input,2022.1.1,59.983720364162636,
estimulos/2.wav,,,,,4,1,25,1,,,,,,,,,,,,,,,0.01367871998809278,None,,,,,,,,,,,261.9970833999105,None,261.9970833999105,None,3,,,004,001,2022-06-23_14h04.23.912,audio-text-input,2022.1.1,59.983720364162636,
estimulos/3.wav,,,,,4,2,26,2,,,,,,,,,,,,,,,0.013832220109179616,None,,,,,,,,,,,267.70325140003115,None,267.70325140003115,None,6,,,004,001,2022-06-23_14h04.23.912,audio-text-input,2022.1.1,59.983720364162636,
estimulos/5.wav,,,,,4,3,27,4,,,,,,,,,,,,,,,0.01360682025551796,None,,,,,,,,,,,273.50970240007155,None,273.50970240007155,None,8,,,004,001,2022-06-23_14h04.23.912,audio-text-input,2022.1.1,59.983720364162636,
estimulos/6.wav,,,,,4,4,28,5,,,,,,,,,,,,,,,0.013771419879049063,None,,,,,,,,,,,279.83316899999045,None,279.83316899999045,None,6,,,004,001,2022-06-23_14h04.23.912,audio-text-input,2022.1.1,59.983720364162636,
estimulos/1.wav,,,,,4,5,29,0,,,,,,,,,,,,,,,0.013648820109665394,None,,,,,,,,,,,287.55831989995204,None,287.55831989995204,None,1,,,004,001,2022-06-23_14h04.23.912,audio-text-input,2022.1.1,59.983720364162636,
,,,,,,,,,,,,,,,,,,,,,,,,,,,,,,,,,,,,,,,,288.0087764998898,None,,,,,,,
