soundEstimulus,trials_2.thisRepN,trials_2.thisTrialN,trials_2.thisN,trials_2.thisIndex,trials.thisRepN,trials.thisTrialN,trials.thisN,trials.thisIndex,image_2.started,image_2.stopped,key_resp.keys,key_resp.rt,key_resp.started,key_resp.stopped,instruccion.started,instruccion.stopped,instruccion_2.started,instruccion_2.stopped,key_resp_2.keys,key_resp_2.rt,key_resp_2.started,key_resp_2.stopped,soundEst.started,soundEst.stopped,testText.started,testText.stopped,instr_2.started,instr_2.stopped,key_resp_3.keys,key_resp_3.rt,key_resp_3.started,key_resp_3.stopped,instruccion_3.started,instruccion_3.stopped,instr.started,instr.stopped,text.started,text.stopped,typedWord,text_3.started,text_3.stopped,participant,session,date,expName,psychopyVersion,frameRate,
,,,,,,,,,37.66724639991298,None,return,17.28973750001751,44.663061700062826,None,,,,,,,,,,,,,,,,,,,,,,,,,,,,026,001,2022-06-24_12h50.33.951,audio-text-input,2022.1.1,59.92703281943942,
,,,,,,,,,,,,,,,44.663061700062826,None,61.98195649986155,None,return,6.722772300010547,61.98195649986155,None,,,,,,,,,,,,,,,,,,,,026,001,2022-06-24_12h50.33.951,audio-text-input,2022.1.1,59.92703281943942,
estimulos/2.wav,0,0,0,1,,,,,,,,,,,,,,,,,,,0.006644619861617684,None,73.84499270003289,None,73.84499270003289,None,,,,,,,,,,,,,,026,001,2022-06-24_12h50.33.951,audio-text-input,2022.1.1,59.92703281943942,
estimulos/5.wav,0,1,1,4,,,,,,,,,,,,,,,,,,,0.013791519915685058,None,81.68689939985052,None,81.68689939985052,None,,,,,,,,,,,,,,026,001,2022-06-24_12h50.33.951,audio-text-input,2022.1.1,59.92703281943942,
estimulos/1.wav,0,2,2,0,,,,,,,,,,,,,,,,,,,0.013838219922035933,None,88.3274862000253,None,88.3274862000253,None,,,,,,,,,,,,,,026,001,2022-06-24_12h50.33.951,audio-text-input,2022.1.1,59.92703281943942,
estimulos/3.wav,0,3,3,2,,,,,,,,,,,,,,,,,,,0.013943720143288374,None,95.18498119991273,None,95.18498119991273,None,,,,,,,,,,,,,,026,001,2022-06-24_12h50.33.951,audio-text-input,2022.1.1,59.92703281943942,
estimulos/4.wav,0,4,4,3,,,,,,,,,,,,,,,,,,,0.01387981977313757,None,103.7610410999041,None,103.7610410999041,None,,,,,,,,,,,,,,026,001,2022-06-24_12h50.33.951,audio-text-input,2022.1.1,59.92703281943942,
estimulos/6.wav,0,5,5,5,,,,,,,,,,,,,,,,,,,0.013869219925254583,None,111.91992919985205,None,111.91992919985205,None,,,,,,,,,,,,,,026,001,2022-06-24_12h50.33.951,audio-text-input,2022.1.1,59.92703281943942,
,,,,,,,,,,,,,,,,,,,,,,,,,,,,,return,19.31480640009977,116.54161780001596,None,,,,,,,,,,026,001,2022-06-24_12h50.33.951,audio-text-input,2022.1.1,59.92703281943942,
estimulos/2.wav,,,,,0,0,0,1,,,,,,,,,,,,,,,0.00937901996076107,None,,,,,,,,,116.54161780001596,None,141.00170410005376,None,141.00170410005376,None,5,,,026,001,2022-06-24_12h50.33.951,audio-text-input,2022.1.1,59.92703281943942,
estimulos/6.wav,,,,,0,1,1,5,,,,,,,,,,,,,,,0.013709819875657558,None,,,,,,,,,,,148.8269290998578,None,148.8269290998578,None,8,,,026,001,2022-06-24_12h50.33.951,audio-text-input,2022.1.1,59.92703281943942,
estimulos/4.wav,,,,,0,2,2,3,,,,,,,,,,,,,,,0.013761420035734773,None,,,,,,,,,,,156.00143259996548,None,156.00143259996548,None,7,,,026,001,2022-06-24_12h50.33.951,audio-text-input,2022.1.1,59.92703281943942,
estimulos/5.wav,,,,,0,3,3,4,,,,,,,,,,,,,,,0.013841220177710056,None,,,,,,,,,,,162.82555579999462,None,162.82555579999462,None,8,,,026,001,2022-06-24_12h50.33.951,audio-text-input,2022.1.1,59.92703281943942,
estimulos/1.wav,,,,,0,4,4,0,,,,,,,,,,,,,,,0.013860119972378016,None,,,,,,,,,,,171.65186539990827,None,171.65186539990827,None,1,,,026,001,2022-06-24_12h50.33.951,audio-text-input,2022.1.1,59.92703281943942,
estimulos/3.wav,,,,,0,5,5,2,,,,,,,,,,,,,,,0.013868119800463319,None,,,,,,,,,,,179.87751739984378,None,179.87751739984378,None,4,,,026,001,2022-06-24_12h50.33.951,audio-text-input,2022.1.1,59.92703281943942,
estimulos/1.wav,,,,,1,0,6,0,,,,,,,,,,,,,,,0.013777320040389895,None,,,,,,,,,,,185.73394559998997,None,185.73394559998997,None,1,,,026,001,2022-06-24_12h50.33.951,audio-text-input,2022.1.1,59.92703281943942,
estimulos/3.wav,,,,,1,1,7,2,,,,,,,,,,,,,,,0.013838619692251086,None,,,,,,,,,,,191.50689489999786,None,191.50689489999786,None,3,,,026,001,2022-06-24_12h50.33.951,audio-text-input,2022.1.1,59.92703281943942,
estimulos/2.wav,,,,,1,2,8,1,,,,,,,,,,,,,,,0.013816219754517078,None,,,,,,,,,,,198.9984219998587,None,198.9984219998587,None,2.5,,,026,001,2022-06-24_12h50.33.951,audio-text-input,2022.1.1,59.92703281943942,
estimulos/6.wav,,,,,1,3,9,5,,,,,,,,,,,,,,,0.013776019914075732,None,,,,,,,,,,,206.37314169993624,None,206.37314169993624,None,10,,,026,001,2022-06-24_12h50.33.951,audio-text-input,2022.1.1,59.92703281943942,
estimulos/5.wav,,,,,1,4,10,4,,,,,,,,,,,,,,,0.013815119862556458,None,,,,,,,,,,,213.68112579989247,None,213.68112579989247,None,8,,,026,001,2022-06-24_12h50.33.951,audio-text-input,2022.1.1,59.92703281943942,
estimulos/4.wav,,,,,1,5,11,3,,,,,,,,,,,,,,,0.01386951981112361,None,,,,,,,,,,,219.42072709999047,None,219.42072709999047,None,7,,,026,001,2022-06-24_12h50.33.951,audio-text-input,2022.1.1,59.92703281943942,
estimulos/6.wav,,,,,2,0,12,5,,,,,,,,,,,,,,,0.013731119921430945,None,,,,,,,,,,,225.94453700003214,None,225.94453700003214,None,9,,,026,001,2022-06-24_12h50.33.951,audio-text-input,2022.1.1,59.92703281943942,
estimulos/3.wav,,,,,2,1,13,2,,,,,,,,,,,,,,,0.013826519949361682,None,,,,,,,,,,,232.20136810000986,None,232.20136810000986,None,6,,,026,001,2022-06-24_12h50.33.951,audio-text-input,2022.1.1,59.92703281943942,
estimulos/4.wav,,,,,2,2,14,3,,,,,,,,,,,,,,,0.01382292015478015,None,,,,,,,,,,,238.55831469991244,None,238.55831469991244,None,5,,,026,001,2022-06-24_12h50.33.951,audio-text-input,2022.1.1,59.92703281943942,
estimulos/2.wav,,,,,2,3,15,1,,,,,,,,,,,,,,,0.013813919853419065,None,,,,,,,,,,,245.215600800002,None,245.215600800002,None,3,,,026,001,2022-06-24_12h50.33.951,audio-text-input,2022.1.1,59.92703281943942,
estimulos/1.wav,,,,,2,4,16,0,,,,,,,,,,,,,,,0.013795119943097234,None,,,,,,,,,,,252.20655380003154,None,252.20655380003154,None,1,,,026,001,2022-06-24_12h50.33.951,audio-text-input,2022.1.1,59.92703281943942,
estimulos/5.wav,,,,,2,5,17,4,,,,,,,,,,,,,,,0.01385692018084228,None,,,,,,,,,,,258.4133393999655,None,258.4133393999655,None,4,,,026,001,2022-06-24_12h50.33.951,audio-text-input,2022.1.1,59.92703281943942,
estimulos/1.wav,,,,,3,0,18,0,,,,,,,,,,,,,,,0.013852619798853993,None,,,,,,,,,,,265.0873099998571,None,265.0873099998571,None,1,,,026,001,2022-06-24_12h50.33.951,audio-text-input,2022.1.1,59.92703281943942,
estimulos/5.wav,,,,,3,1,19,4,,,,,,,,,,,,,,,0.013835820136591792,None,,,,,,,,,,,270.74349500006065,None,270.74349500006065,None,7,,,026,001,2022-06-24_12h50.33.951,audio-text-input,2022.1.1,59.92703281943942,
estimulos/3.wav,,,,,3,2,20,2,,,,,,,,,,,,,,,0.013882119907066226,None,,,,,,,,,,,277.08374279993586,None,277.08374279993586,None,5,,,026,001,2022-06-24_12h50.33.951,audio-text-input,2022.1.1,59.92703281943942,
estimulos/4.wav,,,,,3,3,21,3,,,,,,,,,,,,,,,0.013813920086249709,None,,,,,,,,,,,282.673186799977,None,282.673186799977,None,5,,,026,001,2022-06-24_12h50.33.951,audio-text-input,2022.1.1,59.92703281943942,
estimulos/6.wav,,,,,3,4,22,5,,,,,,,,,,,,,,,0.013778719818219543,None,,,,,,,,,,,288.8299012000207,None,288.8299012000207,None,7,,,026,001,2022-06-24_12h50.33.951,audio-text-input,2022.1.1,59.92703281943942,
estimulos/2.wav,,,,,3,5,23,1,,,,,,,,,,,,,,,0.013874819967895746,None,,,,,,,,,,,294.83646259992383,None,294.83646259992383,None,3,,,026,001,2022-06-24_12h50.33.951,audio-text-input,2022.1.1,59.92703281943942,
estimulos/3.wav,,,,,4,0,24,2,,,,,,,,,,,,,,,0.013811320066452026,None,,,,,,,,,,,300.6261342000216,None,300.6261342000216,None,4,,,026,001,2022-06-24_12h50.33.951,audio-text-input,2022.1.1,59.92703281943942,
estimulos/1.wav,,,,,4,1,25,0,,,,,,,,,,,,,,,0.013812020188197494,None,,,,,,,,,,,306.6327045999933,None,306.6327045999933,None,1,,,026,001,2022-06-24_12h50.33.951,audio-text-input,2022.1.1,59.92703281943942,
estimulos/6.wav,,,,,4,2,26,5,,,,,,,,,,,,,,,0.013870619935914874,None,,,,,,,,,,,312.50578400003724,None,312.50578400003724,None,12,,,026,001,2022-06-24_12h50.33.951,audio-text-input,2022.1.1,59.92703281943942,
estimulos/2.wav,,,,,4,3,27,1,,,,,,,,,,,,,,,0.013710119994357228,None,,,,,,,,,,,320.34768510004506,None,320.34768510004506,None,4,,,026,001,2022-06-24_12h50.33.951,audio-text-input,2022.1.1,59.92703281943942,
estimulos/5.wav,,,,,4,4,28,4,,,,,,,,,,,,,,,0.013821220025420189,None,,,,,,,,,,,327.2218694000039,None,327.2218694000039,None,4,,,026,001,2022-06-24_12h50.33.951,audio-text-input,2022.1.1,59.92703281943942,
estimulos/4.wav,,,,,4,5,29,3,,,,,,,,,,,,,,,0.013803720008581877,None,,,,,,,,,,,334.1127295999322,None,334.1127295999322,None,5,,,026,001,2022-06-24_12h50.33.951,audio-text-input,2022.1.1,59.92703281943942,
,,,,,,,,,,,,,,,,,,,,,,,,,,,,,,,,,,,,,,,,336.06486069993116,None,,,,,,,
