participant,session,date,expName,psychopyVersion,OS,frameRate,key_resp.keys,key_resp.rt,key_resp_4.keys,key_resp_4.rt,key_resp_5.keys,key_resp_5.rt,key_resp_2.keys,key_resp_2.rt,typedWord,trials_2.thisRepN,trials_2.thisTrialN,trials_2.thisN,trials_2.thisIndex,trials_2.ran,soundEstimulus,key_resp_3.keys,key_resp_3.rt,trials.thisRepN,trials.thisTrialN,trials.thisN,trials.thisIndex,trials.ran
,001,2022-11-09_09h28.06.758,audio-text-input,2022.2.2,Win32,59.79073244,,,,,,,,,,,,,,,,,,,,,,
,001,2022-11-09_09h28.06.758,audio-text-input,2022.2.2,Win32,59.79073244,return,12.3142,,,,,,,,,,,,,,,,,,,,
,001,2022-11-09_09h28.06.758,audio-text-input,2022.2.2,Win32,59.79073244,,,return,15.8615,,,,,,,,,,,,,,,,,,
,001,2022-11-09_09h28.06.758,audio-text-input,2022.2.2,Win32,59.79073244,,,,,return,6.3754,,,,,,,,,,,,,,,,
,001,2022-11-09_09h28.06.758,audio-text-input,2022.2.2,Win32,59.79073244,,,,,,,return,11.4882,,,,,,,,,,,,,,
,001,2022-11-09_09h28.06.758,audio-text-input,2022.2.2,Win32,59.79073244,,,,,,,,,7,0,0,0,5,1,estimulos/6.wav,,,,,,,
,001,2022-11-09_09h28.06.758,audio-text-input,2022.2.2,Win32,59.79073244,,,,,,,,,5,0,1,1,1,1,estimulos/2.wav,,,,,,,
,001,2022-11-09_09h28.06.758,audio-text-input,2022.2.2,Win32,59.79073244,,,,,,,,,4,0,2,2,0,1,estimulos/1.wav,,,,,,,
,001,2022-11-09_09h28.06.758,audio-text-input,2022.2.2,Win32,59.79073244,,,,,,,,,8,0,3,3,3,1,estimulos/4.wav,,,,,,,
,001,2022-11-09_09h28.06.758,audio-text-input,2022.2.2,Win32,59.79073244,,,,,,,,,6,0,4,4,4,1,estimulos/5.wav,,,,,,,
,001,2022-11-09_09h28.06.758,audio-text-input,2022.2.2,Win32,59.79073244,,,,,,,,,5,0,5,5,2,1,estimulos/3.wav,,,,,,,
,001,2022-11-09_09h28.06.758,audio-text-input,2022.2.2,Win32,59.79073244,,,,,,,,,,,,,,,,return,2.0209,,,,,
,001,2022-11-09_09h28.06.758,audio-text-input,2022.2.2,Win32,59.79073244,,,,,,,,,5,,,,,,estimulos/5.wav,,,0,0,0,4,1
,001,2022-11-09_09h28.06.758,audio-text-input,2022.2.2,Win32,59.79073244,,,,,,,,,4,,,,,,estimulos/2.wav,,,0,1,1,1,1
,001,2022-11-09_09h28.06.758,audio-text-input,2022.2.2,Win32,59.79073244,,,,,,,,,8,,,,,,estimulos/4.wav,,,0,2,2,3,1
,001,2022-11-09_09h28.06.758,audio-text-input,2022.2.2,Win32,59.79073244,,,,,,,,,8,,,,,,estimulos/6.wav,,,0,3,3,5,1
,001,2022-11-09_09h28.06.758,audio-text-input,2022.2.2,Win32,59.79073244,,,,,,,,,6,,,,,,estimulos/3.wav,,,0,4,4,2,1
,001,2022-11-09_09h28.06.758,audio-text-input,2022.2.2,Win32,59.79073244,,,,,,,,,3,,,,,,estimulos/1.wav,,,0,5,5,0,1
,001,2022-11-09_09h28.06.758,audio-text-input,2022.2.2,Win32,59.79073244,,,,,,,,,7,,,,,,estimulos/5.wav,,,1,0,6,4,1
,001,2022-11-09_09h28.06.758,audio-text-input,2022.2.2,Win32,59.79073244,,,,,,,,,2,,,,,,estimulos/1.wav,,,1,1,7,0,1
,001,2022-11-09_09h28.06.758,audio-text-input,2022.2.2,Win32,59.79073244,,,,,,,,,5,,,,,,estimulos/2.wav,,,1,2,8,1,1
,001,2022-11-09_09h28.06.758,audio-text-input,2022.2.2,Win32,59.79073244,,,,,,,,,8,,,,,,estimulos/6.wav,,,1,3,9,5,1
,001,2022-11-09_09h28.06.758,audio-text-input,2022.2.2,Win32,59.79073244,,,,,,,,,6,,,,,,estimulos/4.wav,,,1,4,10,3,1
,001,2022-11-09_09h28.06.758,audio-text-input,2022.2.2,Win32,59.79073244,,,,,,,,,4,,,,,,estimulos/3.wav,,,1,5,11,2,1
,001,2022-11-09_09h28.06.758,audio-text-input,2022.2.2,Win32,59.79073244,,,,,,,,,2,,,,,,estimulos/1.wav,,,2,0,12,0,1
,001,2022-11-09_09h28.06.758,audio-text-input,2022.2.2,Win32,59.79073244,,,,,,,,,7,,,,,,estimulos/4.wav,,,2,1,13,3,1
,001,2022-11-09_09h28.06.758,audio-text-input,2022.2.2,Win32,59.79073244,,,,,,,,,7,,,,,,estimulos/3.wav,,,2,2,14,2,1
,001,2022-11-09_09h28.06.758,audio-text-input,2022.2.2,Win32,59.79073244,,,,,,,,,8,,,,,,estimulos/6.wav,,,2,3,15,5,1
,001,2022-11-09_09h28.06.758,audio-text-input,2022.2.2,Win32,59.79073244,,,,,,,,,4,,,,,,estimulos/2.wav,,,2,4,16,1,1
,001,2022-11-09_09h28.06.758,audio-text-input,2022.2.2,Win32,59.79073244,,,,,,,,,5,,,,,,estimulos/5.wav,,,2,5,17,4,1
,001,2022-11-09_09h28.06.758,audio-text-input,2022.2.2,Win32,59.79073244,,,,,,,,,7,,,,,,estimulos/4.wav,,,3,0,18,3,1
,001,2022-11-09_09h28.06.758,audio-text-input,2022.2.2,Win32,59.79073244,,,,,,,,,7,,,,,,estimulos/5.wav,,,3,1,19,4,1
,001,2022-11-09_09h28.06.758,audio-text-input,2022.2.2,Win32,59.79073244,,,,,,,,,3,,,,,,estimulos/2.wav,,,3,2,20,1,1
,001,2022-11-09_09h28.06.758,audio-text-input,2022.2.2,Win32,59.79073244,,,,,,,,,6,,,,,,estimulos/3.wav,,,3,3,21,2,1
,001,2022-11-09_09h28.06.758,audio-text-input,2022.2.2,Win32,59.79073244,,,,,,,,,8,,,,,,estimulos/6.wav,,,3,4,22,5,1
,001,2022-11-09_09h28.06.758,audio-text-input,2022.2.2,Win32,59.79073244,,,,,,,,,2,,,,,,estimulos/1.wav,,,3,5,23,0,1
,001,2022-11-09_09h28.06.758,audio-text-input,2022.2.2,Win32,59.79073244,,,,,,,,,7,,,,,,estimulos/2.wav,,,4,0,24,1,1
,001,2022-11-09_09h28.06.758,audio-text-input,2022.2.2,Win32,59.79073244,,,,,,,,,8,,,,,,estimulos/6.wav,,,4,1,25,5,1
,001,2022-11-09_09h28.06.758,audio-text-input,2022.2.2,Win32,59.79073244,,,,,,,,,3,,,,,,estimulos/1.wav,,,4,2,26,0,1
,001,2022-11-09_09h28.06.758,audio-text-input,2022.2.2,Win32,59.79073244,,,,,,,,,9,,,,,,estimulos/4.wav,,,4,3,27,3,1
,001,2022-11-09_09h28.06.758,audio-text-input,2022.2.2,Win32,59.79073244,,,,,,,,,8,,,,,,estimulos/5.wav,,,4,4,28,4,1
,001,2022-11-09_09h28.06.758,audio-text-input,2022.2.2,Win32,59.79073244,,,,,,,,,7,,,,,,estimulos/3.wav,,,4,5,29,2,1
,001,2022-11-09_09h28.06.758,audio-text-input,2022.2.2,Win32,59.79073244,,,,,,,,,,,,,,,,,,,,,,
