participant,session,date,expName,psychopyVersion,OS,frameRate,key_resp.keys,key_resp.rt,key_resp_4.keys,key_resp_4.rt,key_resp_5.keys,key_resp_5.rt,key_resp_2.keys,key_resp_2.rt,typedWord,trials_2.thisRepN,trials_2.thisTrialN,trials_2.thisN,trials_2.thisIndex,trials_2.ran,soundEstimulus,key_resp_3.keys,key_resp_3.rt,trials.thisRepN,trials.thisTrialN,trials.thisN,trials.thisIndex,trials.ran,participant_n
Abaca,001,2023-05-31_20h38.29.202,audio-text-input,2022.2.2,Win32,59.79788315,,,,,,,,,,,,,,,,,,,,,,,002
Abaca,001,2023-05-31_20h38.29.202,audio-text-input,2022.2.2,Win32,59.79788315,return,14.5061,,,,,,,,,,,,,,,,,,,,,002
Abaca,001,2023-05-31_20h38.29.202,audio-text-input,2022.2.2,Win32,59.79788315,,,return,8.1631,,,,,,,,,,,,,,,,,,,002
Abaca,001,2023-05-31_20h38.29.202,audio-text-input,2022.2.2,Win32,59.79788315,,,,,return,4.1315,,,,,,,,,,,,,,,,,002
Abaca,001,2023-05-31_20h38.29.202,audio-text-input,2022.2.2,Win32,59.79788315,,,,,,,return,9.6804,,,,,,,,,,,,,,,002
Abaca,001,2023-05-31_20h38.29.202,audio-text-input,2022.2.2,Win32,59.79788315,,,,,,,,,3,0,0,0,3,1,estimulos/4.wav,,,,,,,,002
Abaca,001,2023-05-31_20h38.29.202,audio-text-input,2022.2.2,Win32,59.79788315,,,,,,,,,2,0,1,1,0,1,estimulos/1.wav,,,,,,,,002
Abaca,001,2023-05-31_20h38.29.202,audio-text-input,2022.2.2,Win32,59.79788315,,,,,,,,,6,0,2,2,4,1,estimulos/5.wav,,,,,,,,002
Abaca,001,2023-05-31_20h38.29.202,audio-text-input,2022.2.2,Win32,59.79788315,,,,,,,,,7,0,3,3,5,1,estimulos/6.wav,,,,,,,,002
Abaca,001,2023-05-31_20h38.29.202,audio-text-input,2022.2.2,Win32,59.79788315,,,,,,,,,5,0,4,4,2,1,estimulos/3.wav,,,,,,,,002
Abaca,001,2023-05-31_20h38.29.202,audio-text-input,2022.2.2,Win32,59.79788315,,,,,,,,,3,0,5,5,1,1,estimulos/2.wav,,,,,,,,002
Abaca,001,2023-05-31_20h38.29.202,audio-text-input,2022.2.2,Win32,59.79788315,,,,,,,,,,,,,,,,return,2.6861,,,,,,002
Abaca,001,2023-05-31_20h38.29.202,audio-text-input,2022.2.2,Win32,59.79788315,,,,,,,,,4,,,,,,estimulos/2.wav,,,0,0,0,1,1,002
Abaca,001,2023-05-31_20h38.29.202,audio-text-input,2022.2.2,Win32,59.79788315,,,,,,,,,2,,,,,,estimulos/1.wav,,,0,1,1,0,1,002
Abaca,001,2023-05-31_20h38.29.202,audio-text-input,2022.2.2,Win32,59.79788315,,,,,,,,,5,,,,,,estimulos/3.wav,,,0,2,2,2,1,002
Abaca,001,2023-05-31_20h38.29.202,audio-text-input,2022.2.2,Win32,59.79788315,,,,,,,,,6,,,,,,estimulos/6.wav,,,0,3,3,5,1,002
Abaca,001,2023-05-31_20h38.29.202,audio-text-input,2022.2.2,Win32,59.79788315,,,,,,,,,6,,,,,,estimulos/5.wav,,,0,4,4,4,1,002
Abaca,001,2023-05-31_20h38.29.202,audio-text-input,2022.2.2,Win32,59.79788315,,,,,,,,,5,,,,,,estimulos/4.wav,,,0,5,5,3,1,002
Abaca,001,2023-05-31_20h38.29.202,audio-text-input,2022.2.2,Win32,59.79788315,,,,,,,,,4,,,,,,estimulos/5.wav,,,1,0,6,4,1,002
Abaca,001,2023-05-31_20h38.29.202,audio-text-input,2022.2.2,Win32,59.79788315,,,,,,,,,3,,,,,,estimulos/3.wav,,,1,1,7,2,1,002
Abaca,001,2023-05-31_20h38.29.202,audio-text-input,2022.2.2,Win32,59.79788315,,,,,,,,,4,,,,,,estimulos/4.wav,,,1,2,8,3,1,002
Abaca,001,2023-05-31_20h38.29.202,audio-text-input,2022.2.2,Win32,59.79788315,,,,,,,,,6,,,,,,estimulos/6.wav,,,1,3,9,5,1,002
Abaca,001,2023-05-31_20h38.29.202,audio-text-input,2022.2.2,Win32,59.79788315,,,,,,,,,2,,,,,,estimulos/1.wav,,,1,4,10,0,1,002
Abaca,001,2023-05-31_20h38.29.202,audio-text-input,2022.2.2,Win32,59.79788315,,,,,,,,,5,,,,,,estimulos/2.wav,,,1,5,11,1,1,002
Abaca,001,2023-05-31_20h38.29.202,audio-text-input,2022.2.2,Win32,59.79788315,,,,,,,,,5,,,,,,estimulos/2.wav,,,2,0,12,1,1,002
Abaca,001,2023-05-31_20h38.29.202,audio-text-input,2022.2.2,Win32,59.79788315,,,,,,,,,2,,,,,,estimulos/1.wav,,,2,1,13,0,1,002
Abaca,001,2023-05-31_20h38.29.202,audio-text-input,2022.2.2,Win32,59.79788315,,,,,,,,,5,,,,,,estimulos/5.wav,,,2,2,14,4,1,002
Abaca,001,2023-05-31_20h38.29.202,audio-text-input,2022.2.2,Win32,59.79788315,,,,,,,,,6,,,,,,estimulos/6.wav,,,2,3,15,5,1,002
Abaca,001,2023-05-31_20h38.29.202,audio-text-input,2022.2.2,Win32,59.79788315,,,,,,,,,6,,,,,,estimulos/4.wav,,,2,4,16,3,1,002
Abaca,001,2023-05-31_20h38.29.202,audio-text-input,2022.2.2,Win32,59.79788315,,,,,,,,,6,,,,,,estimulos/3.wav,,,2,5,17,2,1,002
Abaca,001,2023-05-31_20h38.29.202,audio-text-input,2022.2.2,Win32,59.79788315,,,,,,,,,2,,,,,,estimulos/1.wav,,,3,0,18,0,1,002
Abaca,001,2023-05-31_20h38.29.202,audio-text-input,2022.2.2,Win32,59.79788315,,,,,,,,,5,,,,,,estimulos/5.wav,,,3,1,19,4,1,002
Abaca,001,2023-05-31_20h38.29.202,audio-text-input,2022.2.2,Win32,59.79788315,,,,,,,,,5,,,,,,estimulos/2.wav,,,3,2,20,1,1,002
Abaca,001,2023-05-31_20h38.29.202,audio-text-input,2022.2.2,Win32,59.79788315,,,,,,,,,6,,,,,,estimulos/3.wav,,,3,3,21,2,1,002
Abaca,001,2023-05-31_20h38.29.202,audio-text-input,2022.2.2,Win32,59.79788315,,,,,,,,,7,,,,,,estimulos/6.wav,,,3,4,22,5,1,002
Abaca,001,2023-05-31_20h38.29.202,audio-text-input,2022.2.2,Win32,59.79788315,,,,,,,,,6,,,,,,estimulos/4.wav,,,3,5,23,3,1,002
Abaca,001,2023-05-31_20h38.29.202,audio-text-input,2022.2.2,Win32,59.79788315,,,,,,,,,4,,,,,,estimulos/2.wav,,,4,0,24,1,1,002
Abaca,001,2023-05-31_20h38.29.202,audio-text-input,2022.2.2,Win32,59.79788315,,,,,,,,,5,,,,,,estimulos/5.wav,,,4,1,25,4,1,002
Abaca,001,2023-05-31_20h38.29.202,audio-text-input,2022.2.2,Win32,59.79788315,,,,,,,,,3,,,,,,estimulos/1.wav,,,4,2,26,0,1,002
Abaca,001,2023-05-31_20h38.29.202,audio-text-input,2022.2.2,Win32,59.79788315,,,,,,,,,6,,,,,,estimulos/4.wav,,,4,3,27,3,1,002
Abaca,001,2023-05-31_20h38.29.202,audio-text-input,2022.2.2,Win32,59.79788315,,,,,,,,,7,,,,,,estimulos/6.wav,,,4,4,28,5,1,002
Abaca,001,2023-05-31_20h38.29.202,audio-text-input,2022.2.2,Win32,59.79788315,,,,,,,,,5,,,,,,estimulos/3.wav,,,4,5,29,2,1,002
Abaca,001,2023-05-31_20h38.29.202,audio-text-input,2022.2.2,Win32,59.79788315,,,,,,,,,,,,,,,,,,,,,,,002
