participant,session,date,expName,psychopyVersion,OS,frameRate,key_resp.keys,key_resp.rt,key_resp_4.keys,key_resp_4.rt,key_resp_5.keys,key_resp_5.rt,key_resp_2.keys,key_resp_2.rt,typedWord,trials_2.thisRepN,trials_2.thisTrialN,trials_2.thisN,trials_2.thisIndex,trials_2.ran,soundEstimulus,key_resp_3.keys,key_resp_3.rt,trials.thisRepN,trials.thisTrialN,trials.thisN,trials.thisIndex,trials.ran
Ybañez,001,2025-10-14_20h37.46.460,audio-text-input,2022.2.2,Win32,166.6666667,,,,,,,,,,,,,,,,,,,,,,
Ybañez,001,2025-10-14_20h37.46.460,audio-text-input,2022.2.2,Win32,166.6666667,return,14.5878,,,,,,,,,,,,,,,,,,,,
Ybañez,001,2025-10-14_20h37.46.460,audio-text-input,2022.2.2,Win32,166.6666667,,,return,1.0856,,,,,,,,,,,,,,,,,,
Ybañez,001,2025-10-14_20h37.46.460,audio-text-input,2022.2.2,Win32,166.6666667,,,,,return,0.598,,,,,,,,,,,,,,,,
Ybañez,001,2025-10-14_20h37.46.460,audio-text-input,2022.2.2,Win32,166.6666667,,,,,,,return,4.3858,,,,,,,,,,,,,,
Ybañez,001,2025-10-14_20h37.46.460,audio-text-input,2022.2.2,Win32,166.6666667,,,,,,,,,6,0,0,0,2,1,estimulos/3.wav,,,,,,,
Ybañez,001,2025-10-14_20h37.46.460,audio-text-input,2022.2.2,Win32,166.6666667,,,,,,,,,6,0,1,1,4,1,estimulos/5.wav,,,,,,,
Ybañez,001,2025-10-14_20h37.46.460,audio-text-input,2022.2.2,Win32,166.6666667,,,,,,,,,4,0,2,2,0,1,estimulos/1.wav,,,,,,,
Ybañez,001,2025-10-14_20h37.46.460,audio-text-input,2022.2.2,Win32,166.6666667,,,,,,,,,7,0,3,3,3,1,estimulos/4.wav,,,,,,,
Ybañez,001,2025-10-14_20h37.46.460,audio-text-input,2022.2.2,Win32,166.6666667,,,,,,,,,8,0,4,4,5,1,estimulos/6.wav,,,,,,,
Ybañez,001,2025-10-14_20h37.46.460,audio-text-input,2022.2.2,Win32,166.6666667,,,,,,,,,6,0,5,5,1,1,estimulos/2.wav,,,,,,,
Ybañez,001,2025-10-14_20h37.46.460,audio-text-input,2022.2.2,Win32,166.6666667,,,,,,,,,,,,,,,,return,2.8348,,,,,
Ybañez,001,2025-10-14_20h37.46.460,audio-text-input,2022.2.2,Win32,166.6666667,,,,,,,,,6,,,,,,estimulos/5.wav,,,0,0,0,4,1
Ybañez,001,2025-10-14_20h37.46.460,audio-text-input,2022.2.2,Win32,166.6666667,,,,,,,,,5,,,,,,estimulos/2.wav,,,0,1,1,1,1
Ybañez,001,2025-10-14_20h37.46.460,audio-text-input,2022.2.2,Win32,166.6666667,,,,,,,,,7,,,,,,estimulos/3.wav,,,0,2,2,2,1
Ybañez,001,2025-10-14_20h37.46.460,audio-text-input,2022.2.2,Win32,166.6666667,,,,,,,,,8,,,,,,estimulos/6.wav,,,0,3,3,5,1
Ybañez,001,2025-10-14_20h37.46.460,audio-text-input,2022.2.2,Win32,166.6666667,,,,,,,,,7,,,,,,estimulos/4.wav,,,0,4,4,3,1
Ybañez,001,2025-10-14_20h37.46.460,audio-text-input,2022.2.2,Win32,166.6666667,,,,,,,,,7,,,,,,estimulos/1.wav,,,0,5,5,0,1
Ybañez,001,2025-10-14_20h37.46.460,audio-text-input,2022.2.2,Win32,166.6666667,,,,,,,,,6,,,,,,estimulos/3.wav,,,1,0,6,2,1
Ybañez,001,2025-10-14_20h37.46.460,audio-text-input,2022.2.2,Win32,166.6666667,,,,,,,,,5,,,,,,estimulos/2.wav,,,1,1,7,1,1
Ybañez,001,2025-10-14_20h37.46.460,audio-text-input,2022.2.2,Win32,166.6666667,,,,,,,,,4,,,,,,estimulos/1.wav,,,1,2,8,0,1
Ybañez,001,2025-10-14_20h37.46.460,audio-text-input,2022.2.2,Win32,166.6666667,,,,,,,,,6,,,,,,estimulos/5.wav,,,1,3,9,4,1
Ybañez,001,2025-10-14_20h37.46.460,audio-text-input,2022.2.2,Win32,166.6666667,,,,,,,,,7,,,,,,estimulos/4.wav,,,1,4,10,3,1
Ybañez,001,2025-10-14_20h37.46.460,audio-text-input,2022.2.2,Win32,166.6666667,,,,,,,,,7,,,,,,estimulos/6.wav,,,1,5,11,5,1
Ybañez,001,2025-10-14_20h37.46.460,audio-text-input,2022.2.2,Win32,166.6666667,,,,,,,,,6,,,,,,estimulos/4.wav,,,2,0,12,3,1
Ybañez,001,2025-10-14_20h37.46.460,audio-text-input,2022.2.2,Win32,166.6666667,,,,,,,,,4,,,,,,estimulos/1.wav,,,2,1,13,0,1
Ybañez,001,2025-10-14_20h37.46.460,audio-text-input,2022.2.2,Win32,166.6666667,,,,,,,,,5,,,,,,estimulos/2.wav,,,2,2,14,1,1
Ybañez,001,2025-10-14_20h37.46.460,audio-text-input,2022.2.2,Win32,166.6666667,,,,,,,,,6,,,,,,estimulos/6.wav,,,2,3,15,5,1
Ybañez,001,2025-10-14_20h37.46.460,audio-text-input,2022.2.2,Win32,166.6666667,,,,,,,,,6,,,,,,estimulos/5.wav,,,2,4,16,4,1
Ybañez,001,2025-10-14_20h37.46.460,audio-text-input,2022.2.2,Win32,166.6666667,,,,,,,,,6,,,,,,estimulos/3.wav,,,2,5,17,2,1
Ybañez,001,2025-10-14_20h37.46.460,audio-text-input,2022.2.2,Win32,166.6666667,,,,,,,,,6,,,,,,estimulos/3.wav,,,3,0,18,2,1
Ybañez,001,2025-10-14_20h37.46.460,audio-text-input,2022.2.2,Win32,166.6666667,,,,,,,,,6,,,,,,estimulos/4.wav,,,3,1,19,3,1
Ybañez,001,2025-10-14_20h37.46.460,audio-text-input,2022.2.2,Win32,166.6666667,,,,,,,,,7,,,,,,estimulos/5.wav,,,3,2,20,4,1
Ybañez,001,2025-10-14_20h37.46.460,audio-text-input,2022.2.2,Win32,166.6666667,,,,,,,,,8,,,,,,estimulos/6.wav,,,3,3,21,5,1
Ybañez,001,2025-10-14_20h37.46.460,audio-text-input,2022.2.2,Win32,166.6666667,,,,,,,,,6,,,,,,estimulos/2.wav,,,3,4,22,1,1
Ybañez,001,2025-10-14_20h37.46.460,audio-text-input,2022.2.2,Win32,166.6666667,,,,,,,,,5,,,,,,estimulos/1.wav,,,3,5,23,0,1
Ybañez,001,2025-10-14_20h37.46.460,audio-text-input,2022.2.2,Win32,166.6666667,,,,,,,,,5,,,,,,estimulos/1.wav,,,4,0,24,0,1
Ybañez,001,2025-10-14_20h37.46.460,audio-text-input,2022.2.2,Win32,166.6666667,,,,,,,,,7,,,,,,estimulos/3.wav,,,4,1,25,2,1
Ybañez,001,2025-10-14_20h37.46.460,audio-text-input,2022.2.2,Win32,166.6666667,,,,,,,,,8,,,,,,estimulos/5.wav,,,4,2,26,4,1
Ybañez,001,2025-10-14_20h37.46.460,audio-text-input,2022.2.2,Win32,166.6666667,,,,,,,,,8,,,,,,estimulos/6.wav,,,4,3,27,5,1
Ybañez,001,2025-10-14_20h37.46.460,audio-text-input,2022.2.2,Win32,166.6666667,,,,,,,,,6,,,,,,estimulos/2.wav,,,4,4,28,1,1
Ybañez,001,2025-10-14_20h37.46.460,audio-text-input,2022.2.2,Win32,166.6666667,,,,,,,,,7,,,,,,estimulos/4.wav,,,4,5,29,3,1
Ybañez,001,2025-10-14_20h37.46.460,audio-text-input,2022.2.2,Win32,166.6666667,,,,,,,,,,,,,,,,,,,,,,
