soundEstimulus,trials_2.thisRepN,trials_2.thisTrialN,trials_2.thisN,trials_2.thisIndex,trials.thisRepN,trials.thisTrialN,trials.thisN,trials.thisIndex,image_2.started,image_2.stopped,key_resp.keys,key_resp.rt,key_resp.started,key_resp.stopped,instruccion.started,instruccion.stopped,instruccion_2.started,instruccion_2.stopped,key_resp_2.keys,key_resp_2.rt,key_resp_2.started,key_resp_2.stopped,soundEst.started,soundEst.stopped,testText.started,testText.stopped,instr_2.started,instr_2.stopped,key_resp_3.keys,key_resp_3.rt,key_resp_3.started,key_resp_3.stopped,instruccion_3.started,instruccion_3.stopped,instr.started,instr.stopped,text.started,text.stopped,typedWord,text_3.started,text_3.stopped,participant,session,date,expName,psychopyVersion,frameRate,
,,,,,,,,,157.38804140000138,None,return,16.1049067999993,164.391922099996,None,,,,,,,,,,,,,,,,,,,,,,,,,,,,021,001,2022-06-10_15h08.38.829,audio-text-input,2022.1.1,59.961169146105554,
,,,,,,,,,,,,,,,164.391922099996,None,180.52622519999568,None,return,5.567716399993515,180.52622519999568,None,,,,,,,,,,,,,,,,,,,,021,001,2022-06-10_15h08.38.829,audio-text-input,2022.1.1,59.961169146105554,
estimulos/6.wav,0,0,0,5,,,,,,,,,,,,,,,,,,,0.008189560001483187,None,191.25469610000437,None,191.25469610000437,None,,,,,,,,,,,,,,021,001,2022-06-10_15h08.38.829,audio-text-input,2022.1.1,59.961169146105554,
estimulos/4.wav,0,1,1,3,,,,,,,,,,,,,,,,,,,0.013726060002227314,None,209.34115219999512,None,209.34115219999512,None,,,,,,,,,,,,,,021,001,2022-06-10_15h08.38.829,audio-text-input,2022.1.1,59.961169146105554,
estimulos/2.wav,0,2,2,1,,,,,,,,,,,,,,,,,,,0.013776760009932332,None,225.09167779999552,None,225.09167779999552,None,,,,,,,,,,,,,,021,001,2022-06-10_15h08.38.829,audio-text-input,2022.1.1,59.961169146105554,
estimulos/3.wav,0,3,3,2,,,,,,,,,,,,,,,,,,,0.01380955999775324,None,245.08018869999796,None,245.08018869999796,None,,,,,,,,,,,,,,021,001,2022-06-10_15h08.38.829,audio-text-input,2022.1.1,59.961169146105554,
estimulos/5.wav,0,4,4,4,,,,,,,,,,,,,,,,,,,0.014023260009707883,None,257.7774175999948,None,257.7774175999948,None,,,,,,,,,,,,,,021,001,2022-06-10_15h08.38.829,audio-text-input,2022.1.1,59.961169146105554,
estimulos/1.wav,0,5,5,0,,,,,,,,,,,,,,,,,,,0.01382136000029277,None,270.97516010000254,None,270.97516010000254,None,,,,,,,,,,,,,,021,001,2022-06-10_15h08.38.829,audio-text-input,2022.1.1,59.961169146105554,
,,,,,,,,,,,,,,,,,,,,,,,,,,,,,return,32.31839339999715,274.91276669999934,None,,,,,,,,,,021,001,2022-06-10_15h08.38.829,audio-text-input,2022.1.1,59.961169146105554,
estimulos/1.wav,,,,,0,0,0,0,,,,,,,,,,,,,,,0.009004260005895048,None,,,,,,,,,274.91276669999934,None,312.37042530000326,None,312.37042530000326,None,1,,,021,001,2022-06-10_15h08.38.829,audio-text-input,2022.1.1,59.961169146105554,
estimulos/2.wav,,,,,0,1,1,1,,,,,,,,,,,,,,,0.013668460000189953,None,,,,,,,,,,,321.73063560000446,None,321.73063560000446,None,2,,,021,001,2022-06-10_15h08.38.829,audio-text-input,2022.1.1,59.961169146105554,
estimulos/3.wav,,,,,0,2,2,2,,,,,,,,,,,,,,,0.01366136000433471,None,,,,,,,,,,,328.0375289000076,None,328.0375289000076,None,3,,,021,001,2022-06-10_15h08.38.829,audio-text-input,2022.1.1,59.961169146105554,
estimulos/4.wav,,,,,0,3,3,3,,,,,,,,,,,,,,,0.013768660006462596,None,,,,,,,,,,,334.61137909999525,None,334.61137909999525,None,4,,,021,001,2022-06-10_15h08.38.829,audio-text-input,2022.1.1,59.961169146105554,
estimulos/5.wav,,,,,0,4,4,4,,,,,,,,,,,,,,,0.01385036000283435,None,,,,,,,,,,,341.3854474999971,None,341.3854474999971,None,3,,,021,001,2022-06-10_15h08.38.829,audio-text-input,2022.1.1,59.961169146105554,
estimulos/6.wav,,,,,0,5,5,5,,,,,,,,,,,,,,,0.013780160006717779,None,,,,,,,,,,,348.55996110000706,None,348.55996110000706,None,"3,5",,,021,001,2022-06-10_15h08.38.829,audio-text-input,2022.1.1,59.961169146105554,
estimulos/1.wav,,,,,1,0,6,0,,,,,,,,,,,,,,,0.013825260000885464,None,,,,,,,,,,,358.8211806000036,None,358.8211806000036,None,"0,5",,,021,001,2022-06-10_15h08.38.829,audio-text-input,2022.1.1,59.961169146105554,
estimulos/2.wav,,,,,1,1,7,1,,,,,,,,,,,,,,,0.013385660000494681,None,,,,,,,,,,,367.63080379999883,None,367.63080379999883,None,1,,,021,001,2022-06-10_15h08.38.829,audio-text-input,2022.1.1,59.961169146105554,
estimulos/3.wav,,,,,1,2,8,2,,,,,,,,,,,,,,,0.013844260014593601,None,,,,,,,,,,,374.38818779999565,None,374.38818779999565,None,2,,,021,001,2022-06-10_15h08.38.829,audio-text-input,2022.1.1,59.961169146105554,
estimulos/4.wav,,,,,1,3,9,3,,,,,,,,,,,,,,,0.0138473600090947,None,,,,,,,,,,,380.7952185000031,None,380.7952185000031,None,3,,,021,001,2022-06-10_15h08.38.829,audio-text-input,2022.1.1,59.961169146105554,
estimulos/5.wav,,,,,1,4,10,4,,,,,,,,,,,,,,,0.013782759997411631,None,,,,,,,,,,,388.0864997000026,None,388.0864997000026,None,3,,,021,001,2022-06-10_15h08.38.829,audio-text-input,2022.1.1,59.961169146105554,
estimulos/6.wav,,,,,1,5,11,5,,,,,,,,,,,,,,,0.01380215999961365,None,,,,,,,,,,,395.0941617000062,None,395.0941617000062,None,4,,,021,001,2022-06-10_15h08.38.829,audio-text-input,2022.1.1,59.961169146105554,
estimulos/1.wav,,,,,2,0,12,0,,,,,,,,,,,,,,,0.013783560003503226,None,,,,,,,,,,,401.8181787000067,None,401.8181787000067,None,"0,5",,,021,001,2022-06-10_15h08.38.829,audio-text-input,2022.1.1,59.961169146105554,
estimulos/2.wav,,,,,2,1,13,1,,,,,,,,,,,,,,,0.013792560013826005,None,,,,,,,,,,,410.3107868999941,None,410.3107868999941,None,3,,,021,001,2022-06-10_15h08.38.829,audio-text-input,2022.1.1,59.961169146105554,
estimulos/3.wav,,,,,2,2,14,2,,,,,,,,,,,,,,,0.013825160000124015,None,,,,,,,,,,,418.2694898000045,None,418.2694898000045,None,4,,,021,001,2022-06-10_15h08.38.829,audio-text-input,2022.1.1,59.961169146105554,
estimulos/4.wav,,,,,2,3,15,3,,,,,,,,,,,,,,,0.013789760007057339,None,,,,,,,,,,,425.52743850000843,None,425.52743850000843,None,4,,,021,001,2022-06-10_15h08.38.829,audio-text-input,2022.1.1,59.961169146105554,
estimulos/5.wav,,,,,2,4,16,4,,,,,,,,,,,,,,,0.013861560000805184,None,,,,,,,,,,,432.5017025999987,None,432.5017025999987,None,3,,,021,001,2022-06-10_15h08.38.829,audio-text-input,2022.1.1,59.961169146105554,
estimulos/6.wav,,,,,2,5,17,5,,,,,,,,,,,,,,,0.013781860005110502,None,,,,,,,,,,,442.32913139999437,None,442.32913139999437,None,2,,,021,001,2022-06-10_15h08.38.829,audio-text-input,2022.1.1,59.961169146105554,
estimulos/1.wav,,,,,3,0,18,0,,,,,,,,,,,,,,,0.013812860008329153,None,,,,,,,,,,,450.0542265999975,None,450.0542265999975,None,1,,,021,001,2022-06-10_15h08.38.829,audio-text-input,2022.1.1,59.961169146105554,
estimulos/2.wav,,,,,3,1,19,1,,,,,,,,,,,,,,,0.013406060010311194,None,,,,,,,,,,,456.9617777999956,None,456.9617777999956,None,2,,,021,001,2022-06-10_15h08.38.829,audio-text-input,2022.1.1,59.961169146105554,
estimulos/3.wav,,,,,3,2,20,2,,,,,,,,,,,,,,,0.013724860007641837,None,,,,,,,,,,,463.702477800005,None,463.702477800005,None,3,,,021,001,2022-06-10_15h08.38.829,audio-text-input,2022.1.1,59.961169146105554,
estimulos/4.wav,,,,,3,3,21,3,,,,,,,,,,,,,,,0.013849860013579018,None,,,,,,,,,,,470.29301660000056,None,470.29301660000056,None,4,,,021,001,2022-06-10_15h08.38.829,audio-text-input,2022.1.1,59.961169146105554,
estimulos/5.wav,,,,,3,4,22,4,,,,,,,,,,,,,,,0.013848860005964525,None,,,,,,,,,,,478.0348221000022,None,478.0348221000022,None,3,,,021,001,2022-06-10_15h08.38.829,audio-text-input,2022.1.1,59.961169146105554,
estimulos/6.wav,,,,,3,5,23,5,,,,,,,,,,,,,,,0.01383266001357697,None,,,,,,,,,,,484.59198320000723,None,484.59198320000723,None,2,,,021,001,2022-06-10_15h08.38.829,audio-text-input,2022.1.1,59.961169146105554,
estimulos/1.wav,,,,,4,0,24,0,,,,,,,,,,,,,,,0.01382665999699384,None,,,,,,,,,,,491.1324598000065,None,491.1324598000065,None,1,,,021,001,2022-06-10_15h08.38.829,audio-text-input,2022.1.1,59.961169146105554,
estimulos/2.wav,,,,,4,1,25,1,,,,,,,,,,,,,,,0.013828860013745725,None,,,,,,,,,,,497.40598150000733,None,497.40598150000733,None,2,,,021,001,2022-06-10_15h08.38.829,audio-text-input,2022.1.1,59.961169146105554,
estimulos/3.wav,,,,,4,2,26,2,,,,,,,,,,,,,,,0.01400805999583099,None,,,,,,,,,,,503.89640769999824,None,503.89640769999824,None,3,,,021,001,2022-06-10_15h08.38.829,audio-text-input,2022.1.1,59.961169146105554,
estimulos/4.wav,,,,,4,3,27,3,,,,,,,,,,,,,,,0.013822160006384365,None,,,,,,,,,,,509.9196583000012,None,509.9196583000012,None,3,,,021,001,2022-06-10_15h08.38.829,audio-text-input,2022.1.1,59.961169146105554,
estimulos/5.wav,,,,,4,4,28,4,,,,,,,,,,,,,,,0.01382586000545416,None,,,,,,,,,,,516.6103189999994,None,516.6103189999994,None,2,,,021,001,2022-06-10_15h08.38.829,audio-text-input,2022.1.1,59.961169146105554,
estimulos/6.wav,,,,,4,5,29,5,,,,,,,,,,,,,,,0.013787260017124936,None,,,,,,,,,,,523.6513380999968,None,523.6513380999968,None,2,,,021,001,2022-06-10_15h08.38.829,audio-text-input,2022.1.1,59.961169146105554,
estimulos/1.wav,,,,,5,0,30,0,,,,,,,,,,,,,,,0.01379846001509577,None,,,,,,,,,,,529.991595200001,None,529.991595200001,None,1,,,021,001,2022-06-10_15h08.38.829,audio-text-input,2022.1.1,59.961169146105554,
estimulos/2.wav,,,,,5,1,31,1,,,,,,,,,,,,,,,0.013660660028108396,None,,,,,,,,,,,536.0982758000027,None,536.0982758000027,None,3,,,021,001,2022-06-10_15h08.38.829,audio-text-input,2022.1.1,59.961169146105554,
estimulos/3.wav,,,,,5,2,32,2,,,,,,,,,,,,,,,0.01377325999783352,None,,,,,,,,,,,542.5887343000068,None,542.5887343000068,None,4,,,021,001,2022-06-10_15h08.38.829,audio-text-input,2022.1.1,59.961169146105554,
estimulos/4.wav,,,,,5,3,33,3,,,,,,,,,,,,,,,0.013797660009004176,None,,,,,,,,,,,548.8288440000033,None,548.8288440000033,None,2,,,021,001,2022-06-10_15h08.38.829,audio-text-input,2022.1.1,59.961169146105554,
estimulos/5.wav,,,,,5,4,34,4,,,,,,,,,,,,,,,0.013809960015350953,None,,,,,,,,,,,556.0033575999987,None,556.0033575999987,None,2,,,021,001,2022-06-10_15h08.38.829,audio-text-input,2022.1.1,59.961169146105554,
estimulos/6.wav,,,,,5,5,35,5,,,,,,,,,,,,,,,0.013824660010868683,None,,,,,,,,,,,563.6617456999957,None,563.6617456999957,None,3,,,021,001,2022-06-10_15h08.38.829,audio-text-input,2022.1.1,59.961169146105554,
estimulos/1.wav,,,,,6,0,36,0,,,,,,,,,,,,,,,0.013809760013828054,None,,,,,,,,,,,570.0520483,None,570.0520483,None,1,,,021,001,2022-06-10_15h08.38.829,audio-text-input,2022.1.1,59.961169146105554,
estimulos/2.wav,,,,,6,1,37,1,,,,,,,,,,,,,,,0.01382376000401564,None,,,,,,,,,,,577.2932961000042,None,577.2932961000042,None,2,,,021,001,2022-06-10_15h08.38.829,audio-text-input,2022.1.1,59.961169146105554,
estimulos/3.wav,,,,,6,2,38,2,,,,,,,,,,,,,,,0.013780459994450212,None,,,,,,,,,,,584.1507849000045,None,584.1507849000045,None,3,,,021,001,2022-06-10_15h08.38.829,audio-text-input,2022.1.1,59.961169146105554,
estimulos/4.wav,,,,,6,3,39,3,,,,,,,,,,,,,,,0.013761460009845905,None,,,,,,,,,,,590.2574696000083,None,590.2574696000083,None,4,,,021,001,2022-06-10_15h08.38.829,audio-text-input,2022.1.1,59.961169146105554,
estimulos/5.wav,,,,,6,4,40,4,,,,,,,,,,,,,,,0.013805959999444894,None,,,,,,,,,,,596.147240499995,None,596.147240499995,None,3,,,021,001,2022-06-10_15h08.38.829,audio-text-input,2022.1.1,59.961169146105554,
estimulos/6.wav,,,,,6,5,41,5,,,,,,,,,,,,,,,0.013804059999529272,None,,,,,,,,,,,602.187173600003,None,602.187173600003,None,3,,,021,001,2022-06-10_15h08.38.829,audio-text-input,2022.1.1,59.961169146105554,
,,,,,,,,,,,,,,,,,,,,,,,,,,,,,,,,,,,,,,,,608.3605890000035,None,,,,,,,
